# NAME           	C1M467
# WAVELENGTH_UNIT	nm
# DETECTOR       	photon
# COMPNAME       	C1M467
#
## WAVELENGTH	None	nm
## THROUGHPUT	None	filter throughput definition
#
WAVELENGTH,THROUGHPUT
4.490000000000000000e+02,0.000000000000000000e+00
4.495000000000000000e+02,0.000000000000000000e+00
4.500000000000000000e+02,0.000000000000000000e+00
4.505000000000000000e+02,0.000000000000000000e+00
4.510000000000000000e+02,0.000000000000000000e+00
4.515000000000000000e+02,0.000000000000000000e+00
4.520000000000000000e+02,0.000000000000000000e+00
4.525000000000000000e+02,1.399999999999999986e-03
4.530000000000000000e+02,5.599999999999999943e-03
4.535000000000000000e+02,1.409999999999999969e-02
4.540000000000000000e+02,2.809999999999999998e-02
4.545000000000000000e+02,4.920000000000000068e-02
4.550000000000000000e+02,7.879999999999999505e-02
4.555000000000000000e+02,1.180999999999999966e-01
4.560000000000000000e+02,1.688000000000000056e-01
4.565000000000000000e+02,2.291999999999999871e-01
4.570000000000000000e+02,2.980999999999999761e-01
4.575000000000000000e+02,3.726999999999999758e-01
4.580000000000000000e+02,4.500000000000000111e-01
4.585000000000000000e+02,5.272999999999999909e-01
4.590000000000000000e+02,6.018999999999999906e-01
4.595000000000000000e+02,6.707999999999999519e-01
4.600000000000000000e+02,7.312999999999999501e-01
4.605000000000000000e+02,7.819000000000000394e-01
4.610000000000000000e+02,8.213000000000000300e-01
4.615000000000000000e+02,8.508000000000000007e-01
4.620000000000000000e+02,8.719000000000000083e-01
4.625000000000000000e+02,8.859000000000000208e-01
4.630000000000000000e+02,8.943999999999999728e-01
4.635000000000000000e+02,8.985999999999999543e-01
4.640000000000000000e+02,9.000000000000000222e-01
4.645000000000000000e+02,9.000000000000000222e-01
4.650000000000000000e+02,9.000000000000000222e-01
4.655000000000000000e+02,9.000000000000000222e-01
4.660000000000000000e+02,9.000000000000000222e-01
4.665000000000000000e+02,9.000000000000000222e-01
4.670000000000000000e+02,9.000000000000000222e-01
4.675000000000000000e+02,9.000000000000000222e-01
4.680000000000000000e+02,9.000000000000000222e-01
4.685000000000000000e+02,9.000000000000000222e-01
4.690000000000000000e+02,9.000000000000000222e-01
4.695000000000000000e+02,9.000000000000000222e-01
4.700000000000000000e+02,9.000000000000000222e-01
4.705000000000000000e+02,9.000000000000000222e-01
4.710000000000000000e+02,9.000000000000000222e-01
4.715000000000000000e+02,9.000000000000000222e-01
4.720000000000000000e+02,9.000000000000000222e-01
4.725000000000000000e+02,8.985999999999999543e-01
4.730000000000000000e+02,8.943999999999999728e-01
4.735000000000000000e+02,8.859000000000000208e-01
4.740000000000000000e+02,8.719000000000000083e-01
4.745000000000000000e+02,8.508000000000000007e-01
4.750000000000000000e+02,8.213000000000000300e-01
4.755000000000000000e+02,7.819000000000000394e-01
4.760000000000000000e+02,7.312999999999999501e-01
4.765000000000000000e+02,6.707999999999999519e-01
4.770000000000000000e+02,6.018999999999999906e-01
4.775000000000000000e+02,5.272999999999999909e-01
4.780000000000000000e+02,4.500000000000000111e-01
4.785000000000000000e+02,3.726999999999999758e-01
4.790000000000000000e+02,2.980999999999999761e-01
4.795000000000000000e+02,2.291999999999999871e-01
4.800000000000000000e+02,1.688000000000000056e-01
4.805000000000000000e+02,1.180999999999999966e-01
4.810000000000000000e+02,7.879999999999999505e-02
4.815000000000000000e+02,4.920000000000000068e-02
4.820000000000000000e+02,2.809999999999999998e-02
4.825000000000000000e+02,1.409999999999999969e-02
4.830000000000000000e+02,5.599999999999999943e-03
4.835000000000000000e+02,1.399999999999999986e-03
4.840000000000000000e+02,0.000000000000000000e+00
4.845000000000000000e+02,0.000000000000000000e+00
4.850000000000000000e+02,0.000000000000000000e+00
4.855000000000000000e+02,0.000000000000000000e+00
4.860000000000000000e+02,0.000000000000000000e+00
4.865000000000000000e+02,0.000000000000000000e+00
4.870000000000000000e+02,0.000000000000000000e+00
