# NAME           	C1M410
# WAVELENGTH_UNIT	nm
# DETECTOR       	photon
# COMPNAME       	C1M410
#
## WAVELENGTH	None	nm
## THROUGHPUT	None	filter throughput definition
#
WAVELENGTH,THROUGHPUT
3.910000000000000000e+02,0.000000000000000000e+00
3.915000000000000000e+02,0.000000000000000000e+00
3.920000000000000000e+02,0.000000000000000000e+00
3.925000000000000000e+02,0.000000000000000000e+00
3.930000000000000000e+02,0.000000000000000000e+00
3.935000000000000000e+02,0.000000000000000000e+00
3.940000000000000000e+02,0.000000000000000000e+00
3.945000000000000000e+02,1.399999999999999986e-03
3.950000000000000000e+02,5.599999999999999943e-03
3.955000000000000000e+02,1.409999999999999969e-02
3.960000000000000000e+02,2.809999999999999998e-02
3.965000000000000000e+02,4.920000000000000068e-02
3.970000000000000000e+02,7.879999999999999505e-02
3.975000000000000000e+02,1.180999999999999966e-01
3.980000000000000000e+02,1.688000000000000056e-01
3.985000000000000000e+02,2.291999999999999871e-01
3.990000000000000000e+02,2.980999999999999761e-01
3.995000000000000000e+02,3.726999999999999758e-01
4.000000000000000000e+02,4.500000000000000111e-01
4.005000000000000000e+02,5.272999999999999909e-01
4.010000000000000000e+02,6.018999999999999906e-01
4.015000000000000000e+02,6.707999999999999519e-01
4.020000000000000000e+02,7.312999999999999501e-01
4.025000000000000000e+02,7.819000000000000394e-01
4.030000000000000000e+02,8.213000000000000300e-01
4.035000000000000000e+02,8.508000000000000007e-01
4.040000000000000000e+02,8.719000000000000083e-01
4.045000000000000000e+02,8.859000000000000208e-01
4.050000000000000000e+02,8.943999999999999728e-01
4.055000000000000000e+02,8.985999999999999543e-01
4.060000000000000000e+02,9.000000000000000222e-01
4.065000000000000000e+02,9.000000000000000222e-01
4.070000000000000000e+02,9.000000000000000222e-01
4.075000000000000000e+02,9.000000000000000222e-01
4.080000000000000000e+02,9.000000000000000222e-01
4.085000000000000000e+02,9.000000000000000222e-01
4.090000000000000000e+02,9.000000000000000222e-01
4.095000000000000000e+02,9.000000000000000222e-01
4.100000000000000000e+02,9.000000000000000222e-01
4.105000000000000000e+02,9.000000000000000222e-01
4.110000000000000000e+02,9.000000000000000222e-01
4.115000000000000000e+02,9.000000000000000222e-01
4.120000000000000000e+02,9.000000000000000222e-01
4.125000000000000000e+02,9.000000000000000222e-01
4.130000000000000000e+02,9.000000000000000222e-01
4.135000000000000000e+02,9.000000000000000222e-01
4.140000000000000000e+02,9.000000000000000222e-01
4.145000000000000000e+02,8.985999999999999543e-01
4.150000000000000000e+02,8.943999999999999728e-01
4.155000000000000000e+02,8.859000000000000208e-01
4.160000000000000000e+02,8.719000000000000083e-01
4.165000000000000000e+02,8.508000000000000007e-01
4.170000000000000000e+02,8.213000000000000300e-01
4.175000000000000000e+02,7.819000000000000394e-01
4.180000000000000000e+02,7.312999999999999501e-01
4.185000000000000000e+02,6.707999999999999519e-01
4.190000000000000000e+02,6.018999999999999906e-01
4.195000000000000000e+02,5.272999999999999909e-01
4.200000000000000000e+02,4.500000000000000111e-01
4.205000000000000000e+02,3.726999999999999758e-01
4.210000000000000000e+02,2.980999999999999761e-01
4.215000000000000000e+02,2.291999999999999871e-01
4.220000000000000000e+02,1.688000000000000056e-01
4.225000000000000000e+02,1.180999999999999966e-01
4.230000000000000000e+02,7.879999999999999505e-02
4.235000000000000000e+02,4.920000000000000068e-02
4.240000000000000000e+02,2.809999999999999998e-02
4.245000000000000000e+02,1.409999999999999969e-02
4.250000000000000000e+02,5.599999999999999943e-03
4.255000000000000000e+02,1.399999999999999986e-03
4.260000000000000000e+02,0.000000000000000000e+00
4.265000000000000000e+02,0.000000000000000000e+00
4.270000000000000000e+02,0.000000000000000000e+00
4.275000000000000000e+02,0.000000000000000000e+00
4.280000000000000000e+02,0.000000000000000000e+00
4.285000000000000000e+02,0.000000000000000000e+00
4.290000000000000000e+02,0.000000000000000000e+00
